Folder: bachelorarbeit_public/data/2024-01-18  NiPS3 outPlane

Note: README.md
# Optical signatures of magnetic phase transitions in transition metal phosphorus sulfides
Bachelor Thesis of Leon Oleschko
Submitted to the Faculty of Physics, Universit√§t Konstanz on May 2024

Antiferromagnetic van der Waals layered semiconductors such as transition metal phosphorus sulfides are of great interest due to their unique combination of magnetic, optical, and structural properties. 
The layered structure allows for exfoliation and the study of property changes over the transition from three-dimensional to two-dimensional structures.
The exotic thickness-dependent magnetic orders are influenced by the varying magnetic and structural anisotropies for different materials.
As the selected semiconductors have bandgaps in the optical and near-infrared, optical measurement techniques offer opportunities for fast in situ measurements of the magnetic structure on a limited sample volume.\
In this work, polarization-resolved photoluminescence spectroscopy has been identified as the most promising optical measurement technique for studying the magnetic phase transitions in the selected materials.
The magnetic splitting in the photoluminescence line of NiPS$_3$ has been demonstrated to be more complex than previously reported, with varying splitting depending on the linear polarization.
In CrPS$_4$ the circular dichroism of the photoluminescence line was shown to be proportional to the magnetization, allowing the entire magnetic phase diagram to be studied with optical methods.

[thesis.pdf](report/thesis/thesis.pdf)

File: test_raman_on_silicon_6mW_561nm_2s_pol_90deg.asc
559.987	555
560.127	554
560.266	557
560.406	556
560.545	556
560.685	557
560.824	556
560.964	568
561.103	804
561.242	841
561.382	559
561.521	557
561.6604	556
561.8	555
561.939	556
562.078	555
562.218	557
562.357	554
562.496	555
562.635	557
562.774	559
562.914	561
563.053	559
563.192	561
563.331	561
563.47	565
563.609	562
563.748	562
563.887	560
564.026	561
564.165	564
564.304	562
564.443	563
564.5824	566
564.721	567
564.86	561
564.999	566
565.138	561
565.277	562
565.416	565
565.555	562
565.694	563
565.832	561
565.971	560
566.11	562
566.2489	566
566.388	563
566.526	568
566.6651	566
566.804	560
566.9425	561
567.081	560
567.22	557
567.359	561
567.497	567
567.636	562
567.774	565
567.9129	562
568.051	563
568.19	564
568.329	563
568.467	566
568.606	565
568.744	561
568.883	567
569.021	566
569.159	568
569.298	564
569.436	564
569.575	562
569.713	559
569.851	564
569.99	565
570.128	561
570.266	564
570.404	569
570.543	563
570.681	564
570.819	561
570.957	566
571.096	566
571.2337	562
571.372	566
571.51	564
571.648	560
571.786	563
571.924	565
572.062	565
572.2	561
572.338	561
572.476	563
572.614	565
572.752	566
572.89	562
573.028	563
573.166	563
573.304	562
573.442	563
573.5799	560
573.718	565
573.856	565
573.993	565
574.131	562
574.269	566
574.4068	567
574.545	564
574.682	568
574.82	565
574.9577	562
575.095	562
575.233	565
575.371	567
575.5083	561
575.646	565
575.784	566
575.921	566
576.059	568
576.196	563
576.334	562
576.471	562
576.609	563
576.746	560
576.884	561
577.021	564
577.158	564
577.296	565
577.433	562
577.571	561
577.708	564
577.845	567
577.983	574
578.12	612
578.257	593
578.394	570
578.532	570
578.669	567
578.806	564
578.943	562
579.08	563
579.217	562
579.355	562
579.4917	567
579.629	563
579.766	569
579.903	563
580.04	567
580.177	565
580.314	562
580.451	564
580.588	565
580.725	563
580.862	564
580.999	563
581.136	564
581.272	558
581.4093	564
581.546	564
581.683	566
581.82	566
581.957	567
582.093	566
582.23	565
582.367	562
582.503	567
582.6402	563
582.777	565
582.914	568
583.05	562
583.187	559
583.323	565
583.4599	564
583.5965	560
583.733	562
583.87	564
584.006	562
584.143	561
584.279	562
584.415	560
584.552	558
584.688	564
584.825	566
584.961	563
585.097	567
585.2337	566
585.37	562
585.506	563
585.643	561
585.779	565
585.9151	566
586.051	564
586.188	561
586.324	561
586.4599	563
586.596	565
586.732	563
586.868	565
587.004	561
587.14	562
587.276	563
587.413	564
587.549	563
587.685	560
587.8205	563
587.956	563
588.092	563
588.228	563
588.3642	560
588.5	567
588.636	563
588.772	562
588.908	564
589.0434	560
589.1792	561
589.315	562
589.451	561
589.586	565
589.722	563
589.858	566
589.994	560
590.129	561
590.265	561
590.4	561
590.536	563
590.672	562
590.807	564
590.943	565
591.078	559
591.214	563
591.349	560
591.485	564
591.62	563
591.755	561
591.891	559
592.026	566
592.162	567
592.297	564
592.432	563
592.568	567
592.703	567
592.838	565
592.973	563
593.109	564
593.244	565
593.379	565
593.5141	564
593.649	566
593.784	570
593.919	565
594.055	566
594.19	563
594.325	566
594.46	565
594.595	562
594.73	562
594.865	559
595	563
595.135	561
595.269	566
595.404	560
595.539	560
595.674	564
595.8089	563
595.944	567
596.078	562
596.213	561
596.348	562
596.483	564
596.55	565

Date and Time:                Thu Jan 18 10:09:48.593 2024
Software Version:             4.30.30000.0
Temperature (C):              -55
Model:                        DU971P_BV
Data Type:                    Counts
Acquisition Mode:             Real Time
Trigger Mode:                 Internal
Exposure Time (secs):         2
Readout Mode:                 Multi-Track (User defined)
Number of Tracks:             1
Extended Dynamic Range:       off
Horizontally flipped:         false
Vertical Shift Speed (usecs): 4.88
Pixel Readout Rate (MHz):     0.05
Baseline Clamp:               OFF
Clock Amplitude:              Normal
Output Amplifier:             Conventional
Serial Number:                5696
Pre-Amplifier Gain:           1x
Spurious Noise Filter Mode:   No Filter
Photon counted:               false
Data Averaging Filter Mode:   No Filter
SR500i:
Serial Number:                SR-1231
Wavelength (nm):              578.417
Grating Groove Density (l/mm):1200.41
Grating Blaze:                500
Output Flipper Port:          Direct
Accessory Output Port 1:      Off
Accessory Output Port 2:      Off
Accessory Output Port 3:      Off
Accessory Input Port:         On